{
  "resourceType": "Bundle",
  "id": "4",
  "type": "transaction",
  "entry": [
    {
      "resource": {
        "resourceType": "Observation",
        "id": "d75e9g46-f487-4d88-cd8b-gg6c6c95387f",
        "meta": {
          "profile": [
            "https://www.medizininformatik-initiative.de/fhir/core/modul-labor/StructureDefinition/ObservationLab"
          ]
        },
        "identifier": [
          {
            "extension": [
              {
                "url": "http://hl7.org/fhir/StructureDefinition/data-absent-reason",
                "valueCode": "masked"
              }
            ]
          }
        ],
        "_status": {
          "extension": [
            {
              "url": "http://hl7.org/fhir/StructureDefinition/data-absent-reason",
              "valueCode": "masked"
            }
          ]
        },
        "category": [
          {
            "extension": [
              {
                "url": "http://hl7.org/fhir/StructureDefinition/data-absent-reason",
                "valueCode": "masked"
              }
            ]
          }
        ],
        "code": {
          "coding": [
            {
              "system": "http://loinc.org",
              "code": "3456-7",
              "display": "Example lab test 4"
            }
          ]
        },
        "subject": {
          "reference": "Patient/4"
        },
        "encounter": {
          "reference": "Encounter/10"
        },
        "_effectiveDateTime": {
          "extension": [
            {
              "url": "http://hl7.org/fhir/StructureDefinition/data-absent-reason",
              "valueCode": "masked"
            }
          ]
        },
        "valueQuantity": {
          "value": 6.7,
          "unit": "mmol/L",
          "system": "http://unitsofmeasure.org",
          "code": "mmol/L"
        }
      },
      "request": {
        "method": "PUT",
        "url": "Observation/d75e9g46-f487-4d88-cd8b-gg6c6c95387f"
      }
    },
    {
      "resource": {
        "resourceType": "Patient",
        "id": "4",
        "meta": {
          "profile": [
            "https://www.medizininformatik-initiative.de/fhir/core/modul-person/StructureDefinition/Patient"
          ]
        }
      },
      "request": {
        "method": "PUT",
        "url": "Patient/4"
      }
    },
    {
      "resource": {
        "resourceType": "Encounter",
        "id": "10",
        "status": "unknown"
      },
      "request": {
        "method": "PUT",
        "url": "Encounter/10"
      }
    }
  ]
}