{
  "resourceType": "Bundle",
  "type": "transaction",
  "entry": [
    {
      "resource": {
        "resourceType": "Patient",
        "id": "pat-1",
        "meta": {
          "profile": [
            "https://www.medizininformatik-initiative.de/fhir/core/modul-person/StructureDefinition/PatientPseudonymisiert"
          ]
        },
        "gender": "female"
      },
      "request": {
        "method": "PUT",
        "url": "Patient/pat-1"
      }
    },
    {
      "resource": {
        "resourceType": "Patient",
        "id": "pat-2",
        "meta": {
          "profile": [
            "https://www.medizininformatik-initiative.de/fhir/core/modul-person/StructureDefinition/PatientPseudonymisiert"
          ]
        },
        "gender": "female"
      },
      "request": {
        "method": "PUT",
        "url": "Patient/pat-2"
      }
    },
    {
      "resource": {
        "resourceType": "Observation",
        "id": "obs-1",
        "meta": {
          "profile": [
            "https://www.medizininformatik-initiative.de/fhir/core/modul-labor/StructureDefinition/ObservationLab"
          ]
        },
        "subject": {
          "reference": "Patient/pat-1"
        },
        "focus": {
          "reference": "Encounter/enc-1"
        },
        "encounter": {
          "reference": "Encounter/enc-1"
        }
      },
      "request": {
        "method": "PUT",
        "url": "Observation/obs-1"
      }
    },
    {
      "resource": {
        "resourceType": "Observation",
        "id": "obs-2",
        "meta": {
          "profile": [
            "https://www.medizininformatik-initiative.de/fhir/core/modul-labor/StructureDefinition/ObservationLab"
          ]
        },
        "subject": {
          "reference": "Patient/pat-2"
        },
        "focus": {
          "reference": "Encounter/enc-2"
        },
        "encounter": {
          "reference": "Encounter/enc-2"
        }
      },
      "request": {
        "method": "PUT",
        "url": "Observation/obs-2"
      }
    },
    {
      "resource": {
        "resourceType": "Encounter",
        "id": "enc-1",
        "meta": {
          "profile": [
            "https://www.medizininformatik-initiative.de/fhir/core/modul-fall/StructureDefinition/KontaktGesundheitseinrichtung"
          ]
        },
        "subject": {
          "reference": "Patient/pat-1"
        },
        "period": {
          "start": "2023-01-02",
          "end": "2023-01-30"
        }
      },
      "request": {
        "method": "PUT",
        "url": "Encounter/enc-1"
      }
    },
    {
      "resource": {
        "resourceType": "Encounter",
        "id": "enc-2",
        "meta": {
          "profile": [
            "https://www.medizininformatik-initiative.de/fhir/core/modul-fall/StructureDefinition/KontaktGesundheitseinrichtung"
          ]
        },
        "subject": {
          "reference": "Patient/pat-2"
        },
        "period": {
          "start": "2024-01-02",
          "end": "2024-01-30"
        }
      },
      "request": {
        "method": "PUT",
        "url": "Encounter/enc-2"
      }
    }
  ]
}