{
  "resourceType": "Bundle",
  "type": "transaction",
  "entry": [
    {
      "resource": {
        "resourceType": "Patient",
        "id": "pat-1",
        "meta": {
          "profile": [
            "https://www.medizininformatik-initiative.de/fhir/core/modul-person/StructureDefinition/PatientPseudonymisiert"
          ]
        },
        "gender": "female"
      },
      "request": {
        "method": "PUT",
        "url": "Patient/pat-1"
      }
    },
    {
      "resource": {
        "resourceType": "Patient",
        "id": "pat-2",
        "meta": {
          "profile": [
            "https://www.medizininformatik-initiative.de/fhir/core/modul-person/StructureDefinition/PatientPseudonymisiert"
          ]
        },
        "gender": "female"
      },
      "request": {
        "method": "PUT",
        "url": "Patient/pat-2"
      }
    },
    {
      "resource": {
        "resourceType": "MedicationRequest",
        "id": "med-req-1",
        "meta": {
          "profile": [
            "https://www.medizininformatik-initiative.de/fhir/core/modul-medikation/StructureDefinition/MedicationRequest"
          ]
        },
        "subject": {
          "reference": "Patient/pat-1"
        },
        "recorder": {
          "reference": "PractitionerRole/prac-1"
        },
        "requester": {
          "reference": "PractitionerRole/prac-1"
        }
      },
      "request": {
        "method": "PUT",
        "url": "MedicationRequest/med-req-1"
      }
    },
    {
      "resource": {
        "resourceType": "MedicationRequest",
        "id": "med-req-2",
        "meta": {
          "profile": [
            "https://www.medizininformatik-initiative.de/fhir/core/modul-medikation/StructureDefinition/MedicationRequest"
          ]
        },
        "subject": {
          "reference": "Patient/pat-2"
        },
        "recorder": {
          "reference": "PractitionerRole/prac-2"
        },
        "requester": {
          "reference": "PractitionerRole/prac-2"
        }
      },
      "request": {
        "method": "PUT",
        "url": "MedicationRequest/med-req-2"
      }
    },
    {
      "resource": {
        "resourceType": "PractitionerRole",
        "id": "prac-1",
        "meta": {
          "profile": [
            "https://www.medizininformatik-initiative.de/fhir/modul-studie/StructureDefinition/mii-pr-studie-beteiligte-person"
          ]
        },
        "period": {
          "start": "2023-01-02",
          "end": "2023-01-30"
        }
      },
      "request": {
        "method": "PUT",
        "url": "PractitionerRole/prac-1"
      }
    },
    {
      "resource": {
        "resourceType": "PractitionerRole",
        "id": "prac-2",
        "meta": {
          "profile": [
            "https://www.medizininformatik-initiative.de/fhir/modul-studie/StructureDefinition/mii-pr-studie-beteiligte-person"
          ]
        },
        "period": {
          "start": "2024-01-02",
          "end": "2024-01-30"
        }
      },
      "request": {
        "method": "PUT",
        "url": "PractitionerRole/prac-2"
      }
    }
  ]
}