{
  "resourceType": "Bundle",
  "type": "transaction",
  "entry": [
    {
      "fullUrl": "Patient/VHF00006",
      "resource": {
        "resourceType": "Patient",
        "id": "VHF00006",
        "meta": {
          "profile": [
            "https://www.medizininformatik-initiative.de/fhir/core/modul-person/StructureDefinition/Patient"
          ]
        },
        "identifier": [
          {
            "use": "usual",
            "type": {
              "coding": [
                {
                  "system": "http://terminology.hl7.org/CodeSystem/v2-0203",
                  "code": "MR"
                }
              ]
            },
            "system": "https://VHF.de/pid",
            "value": "VHF00006"
          }
        ],
        "name": [
          {
            "use": "official",
            "family": "DUMMY_SURNAME",
            "given": [
              "DUMMY_NAME"
            ]
          }
        ],
        "gender": "male",
        "birthDate": "2001-11-01",
        "address": [
          {
            "extension": [
              {
                "url": "http://terminology.hl7.org/CodeSystem/data-absent-reason",
                "valueCode": "unknown"
              }
            ]
          }
        ]
      },
      "request": {
        "method": "PUT",
        "url": "Patient/VHF00006"
      }
    },
    {
      "resource": {
        "resourceType": "Encounter",
        "id": "VHF00006-E-1",
        "meta": {
          "profile": [
            "https://www.medizininformatik-initiative.de/fhir/core/modul-fall/StructureDefinition/KontaktGesundheitseinrichtung"
          ]
        },
        "identifier": [
          {
            "type": {
              "coding": [
                {
                  "system": "http://terminology.hl7.org/CodeSystem/v2-0203",
                  "code": "VN"
                }
              ]
            },
            "_system": {
              "extension": [
                {
                  "url": "http://terminology.hl7.org/CodeSystem/data-absent-reason",
                  "valueCode": "unknown"
                }
              ]
            },
            "value": "VHF00006-E-1",
            "assigner": {
              "identifier": {
                "system": "https://www.medizininformatik-initiative.de/fhir/core/NamingSystem/org-identifier",
                "value": "VHF"
              }
            }
          }
        ],
        "status": "finished",
        "class": {
          "system": "http://terminology.hl7.org/CodeSystem/v3-ActCode",
          "code": "IMP",
          "display": "inpatient encounter"
        },
        "type": [
          {
            "coding": [
              {
                "code": "einrichtungskontakt",
                "display": "Einrichtungskontakt"
              }
            ]
          }
        ],
        "subject": {
          "reference": "Patient/VHF00006"
        },
        "period": {
          "start": "2019-01-01T00:00:00+01:00",
          "end": "2021-01-02T00:00:00+01:00"
        },
        "diagnosis": [
          {
            "condition": {
              "reference": "Condition/VHF00006-CD-1"
            },
            "use": {
              "coding": [
                {
                  "system": "http://terminology.hl7.org/CodeSystem/diagnosis-role",
                  "code": "CC",
                  "display": "Chief complaint"
                }
              ]
            }
          }
        ]
      },
      "request": {
        "method": "PUT",
        "url": "Encounter/VHF00006-E-1"
      }
    },
    {
      "fullUrl": "Consent/VHF00006-CO-1",
      "resource": {
        "patient": {
          "reference": "Patient/VHF00006"
        },
        "category": [
          {
            "coding": [
              {
                "system": "http://loinc.org",
                "code": "59284-0"
              }
            ]
          }
        ],
        "provision": {
          "provision": [
            {
              "type": "permit",
              "code": [
                {
                  "coding": [
                    {
                      "system": "urn:oid:2.16.840.1.113883.3.1937.777.24.5.3",
                      "code": "2.16.840.1.113883.3.1937.777.24.5.3.8"
                    }
                  ]
                }
              ],
              "period": {
                "start": "2021-01-01T00:00:00+01:00",
                "end": "2025-12-31T00:00:00+01:00"
              }
            },
            {
              "type": "permit",
              "code": [
                {
                  "coding": [
                    {
                      "system": "urn:oid:2.16.840.1.113883.3.1937.777.24.5.3",
                      "code": "2.16.840.1.113883.3.1937.777.24.5.3.46"
                    }
                  ]
                }
              ],
              "period": {
                "start": "2021-01-01T00:00:00+01:00",
                "end": "2025-12-31T00:00:00+01:00"
              }
            },
            {
              "type": "permit",
              "code": [
                {
                  "coding": [
                    {
                      "system": "urn:oid:2.16.840.1.113883.3.1937.777.24.5.3",
                      "code": "2.16.840.1.113883.3.1937.777.24.5.3.10"
                    }
                  ]
                }
              ],
              "period": {
                "start": "2021-01-01T00:00:00+01:00",
                "end": "2025-12-31T00:00:00+01:00"
              }
            },
            {
              "type": "permit",
              "code": [
                {
                  "coding": [
                    {
                      "system": "urn:oid:2.16.840.1.113883.3.1937.777.24.5.3",
                      "code": "2.16.840.1.113883.3.1937.777.24.5.3.37"
                    }
                  ]
                }
              ],
              "period": {
                "start": "2021-01-01T00:00:00+01:00",
                "end": "2025-12-31T00:00:00+01:00"
              }
            },
            {
              "type": "permit",
              "code": [
                {
                  "coding": [
                    {
                      "system": "urn:oid:2.16.840.1.113883.3.1937.777.24.5.3",
                      "code": "2.16.840.1.113883.3.1937.777.24.5.3.26"
                    }
                  ]
                }
              ],
              "period": {
                "start": "2021-01-01T00:00:00+01:00",
                "end": "2025-12-31T00:00:00+01:00"
              }
            },
            {
              "type": "permit",
              "code": [
                {
                  "coding": [
                    {
                      "system": "urn:oid:2.16.840.1.113883.3.1937.777.24.5.3",
                      "code": "2.16.840.1.113883.3.1937.777.24.5.3.27"
                    }
                  ]
                }
              ],
              "period": {
                "start": "2021-01-01T00:00:00+01:00",
                "end": "2025-12-31T00:00:00+01:00"
              }
            },
            {
              "type": "permit",
              "code": [
                {
                  "coding": [
                    {
                      "system": "urn:oid:2.16.840.1.113883.3.1937.777.24.5.3",
                      "code": "2.16.840.1.113883.3.1937.777.24.5.3.28"
                    }
                  ]
                }
              ],
              "period": {
                "start": "2021-01-01T00:00:00+01:00",
                "end": "2025-12-31T00:00:00+01:00"
              }
            },
            {
              "type": "permit",
              "code": [
                {
                  "coding": [
                    {
                      "system": "urn:oid:2.16.840.1.113883.3.1937.777.24.5.3",
                      "code": "2.16.840.1.113883.3.1937.777.24.5.3.29"
                    }
                  ]
                }
              ],
              "period": {
                "start": "2021-01-01T00:00:00+01:00",
                "end": "2025-12-31T00:00:00+01:00"
              }
            },
            {
              "type": "permit",
              "code": [
                {
                  "coding": [
                    {
                      "system": "urn:oid:2.16.840.1.113883.3.1937.777.24.5.3",
                      "code": "2.16.840.1.113883.3.1937.777.24.5.3.31"
                    }
                  ]
                }
              ],
              "period": {
                "start": "2021-01-01T00:00:00+01:00",
                "end": "2025-12-31T00:00:00+01:00"
              }
            },
            {
              "type": "permit",
              "code": [
                {
                  "coding": [
                    {
                      "system": "urn:oid:2.16.840.1.113883.3.1937.777.24.5.3",
                      "code": "2.16.840.1.113883.3.1937.777.24.5.3.30"
                    }
                  ]
                }
              ],
              "period": {
                "start": "2021-01-01T00:00:00+01:00",
                "end": "2025-12-31T00:00:00+01:00"
              }
            }
          ],
          "type": "deny",
          "period": {
            "start": "2021-01-01T00:00:00+01:00",
            "end": "2050-12-31T00:00:00+01:00"
          }
        },
        "meta": {
          "versionId": "6",
          "lastUpdated": "2024-09-27T09:01:54.858Z",
          "profile": [
            "http://fhir.de/ConsentManagement/StructureDefinition/Consent",
            "https://www.medizininformatik-initiative.de/fhir/modul-consent/StructureDefinition/mii-pr-consent-einwilligung"
          ]
        },
        "resourceType": "Consent",
        "scope": {
          "coding": [
            {
              "system": "http://terminology.hl7.org/CodeSystem/consentscope",
              "code": "research"
            }
          ]
        },
        "policy": [
          {
            "uri": "https://www.medizininformatik-initiative.de/sites/default/files/2020-04/MII_AG-Consent_Einheitlicher-Mustertext_v1.6d.pdf"
          }
        ],
        "dateTime": "2021-01-01T00:00:00+01:00",
        "status": "active",
        "id": "VHF00006-CO-1"
      },
      "request": {
        "method": "PUT",
        "url": "Consent/VHF00006-CO-1"
      }
    },
    {
      "fullUrl": "Encounter/VHF00006-E-1-A-1",
      "resource": {
        "resourceType": "Encounter",
        "id": "VHF00006-E-1-A-1",
        "meta": {
          "profile": [
            "https://www.medizininformatik-initiative.de/fhir/core/modul-fall/StructureDefinition/KontaktGesundheitseinrichtung|2024"
          ]
        },
        "status": "finished",
        "class": {
          "extension": [
            {
              "url": "http://terminology.hl7.org/CodeSystem/data-absent-reason",
              "valueCode": "unknown"
            }
          ]
        },
        "type": [
          {
            "coding": [
              {
                "code": "abteilungskontakt",
                "display": "Abteilungskontakt"
              }
            ]
          }
        ],
        "serviceType": {
          "coding": [
            {
              "system": "http://fhir.de/CodeSystem/dkgev/Fachabteilungsschluessel",
              "code": "0300",
              "display": "Kardiologie"
            }
          ]
        },
        "subject": {
          "reference": "Patient/VHF00006"
        },
        "period": {
          "start": "2019-01-01T00:00:00+01:00",
          "end": "2021-01-02T00:00:00+01:00"
        },
        "diagnosis": [
          {
            "condition": {
              "_reference": {
                "extension": [
                  {
                    "url": "http://terminology.hl7.org/CodeSystem/data-absent-reason",
                    "valueCode": "unknown"
                  }
                ]
              }
            }
          }
        ],
        "partOf": {
          "reference": "Encounter/VHF00006-E-1"
        }
      },
      "request": {
        "method": "PUT",
        "url": "Encounter/VHF00006-E-1-A-1"
      }
    },
    {
      "fullUrl": "Observation/VHF00006-E-1-OL-1",
      "resource": {
        "resourceType": "Observation",
        "id": "VHF00006-E-1-OL-1",
        "meta": {
          "profile": [
            "https://www.medizininformatik-initiative.de/fhir/core/modul-labor/StructureDefinition/ObservationLab"
          ]
        },
        "identifier": [
          {
            "type": {
              "coding": [
                {
                  "system": "http://terminology.hl7.org/CodeSystem/v2-0203",
                  "code": "OBI"
                }
              ]
            },
            "system": "https://VHF.de/befund",
            "value": "VHF00006-E-1-OL-1",
            "assigner": {
              "identifier": {
                "system": "https://www.medizininformatik-initiative.de/fhir/core/NamingSystem/org-identifier",
                "value": "VHF"
              }
            }
          }
        ],
        "status": "final",
        "category": [
          {
            "coding": [
              {
                "system": "http://terminology.hl7.org/CodeSystem/observation-category",
                "code": "laboratory",
                "display": "Laboratory"
              },
              {
                "system": "http://loinc.org",
                "code": "26436-6",
                "display": "Laboratory studies (set)"
              }
            ]
          }
        ],
        "code": {
          "coding": [
            {
              "system": "http://loinc.org",
              "code": "33762-6"
            }
          ],
          "text": "NT-proBNP SerPl-mCnc"
        },
        "subject": {
          "reference": "Patient/VHF00006"
        },
        "encounter": {
          "reference": "Encounter/VHF00006-E-1"
        },
        "effectiveDateTime": "2022-01-01T00:00:00+01:00",
        "valueQuantity": {
          "value": 27.4,
          "unit": "picogram per milliliter",
          "system": "http://unitsofmeasure.org",
          "code": "pg/mL"
        }
      },
      "request": {
        "method": "PUT",
        "url": "Observation/VHF00006-E-1-OL-1"
      }
    },
    {
      "fullUrl": "Condition/VHF00006-CD-1",
      "resource": {
        "resourceType": "Condition",
        "id": "VHF00006-CD-1",
        "meta": {
          "profile": [
            "https://www.medizininformatik-initiative.de/fhir/core/modul-diagnose/StructureDefinition/Diagnose"
          ]
        },
        "identifier": [
          {
            "value": "VHF00006-CD-1"
          }
        ],
        "code": {
          "coding": [
            {
              "system": "http://fhir.de/CodeSystem/bfarm/icd-10-gm",
              "version": "2020",
              "code": "I95.0"
            }
          ],
          "text": "Idiopathische Hypotonie"
        },
        "subject": {
          "reference": "Patient/VHF00006"
        },
        "recordedDate": "2022-01-01T00:00:00+01:00"
      },
      "request": {
        "method": "PUT",
        "url": "Condition/VHF00006-CD-1"
      }
    },
    {
      "resource": {
        "resourceType": "Observation",
        "id": "a86a69be-826c-4a46-8b7a-d924a81f9066",
        "meta": {
          "profile": [
            "https://www.medizininformatik-initiative.de/fhir/core/modul-labor/StructureDefinition/ObservationLab"
          ]
        },
        "status": "final",
        "category": [
          {
            "coding": [
              {
                "system": "http://terminology.hl7.org/CodeSystem/observation-category",
                "code": "laboratory"
              }
            ]
          }
        ],
        "code": {
          "coding": [
            {
              "system": "http://loinc.org",
              "code": "1234-5",
              "display": "Example lab test"
            }
          ]
        },
        "subject": {
          "reference": "Patient/1"
        },
        "effectiveDateTime": "2023-07-01T00:00:00Z",
        "valueQuantity": {
          "value": 7.2,
          "unit": "mmol/L",
          "system": "http://unitsofmeasure.org",
          "code": "mmol/L"
        }
      },
      "request": {
        "method": "PUT",
        "url": "Observation/a86a69be-826c-4a46-8b7a-d924a81f9066"
      }
    },
    {
      "resource": {
        "resourceType": "Patient",
        "id": "1",
        "meta": {
          "profile": [
            "https://www.medizininformatik-initiative.de/fhir/core/modul-person/StructureDefinition/Patient|123"
          ]
        },
        "identifier": [
          {
            "use": "usual",
            "system": "http://hospital.smarthealthit.org",
            "value": "123456"
          }
        ],
        "name": [
          {
            "use": "official",
            "family": "Doe",
            "given": [
              "John"
            ]
          }
        ],
        "gender": "male",
        "birthDate": "1980-01-01"
      },
      "request": {
        "method": "PUT",
        "url": "Patient/1"
      }
    },
    {
      "resource": {
        "resourceType": "Condition",
        "id": "2",
        "meta": {
          "profile": [
            "https://www.medizininformatik-initiative.de/fhir/core/modul-diagnose/StructureDefinition/Diagnose"
          ]
        },
        "clinicalStatus": {
          "coding": [
            {
              "system": "http://terminology.hl7.org/CodeSystem/condition-clinical",
              "code": "active"
            }
          ]
        },
        "verificationStatus": {
          "coding": [
            {
              "system": "http://terminology.hl7.org/CodeSystem/condition-ver-status",
              "code": "confirmed"
            }
          ]
        },
        "category": [
          {
            "coding": [
              {
                "system": "http://terminology.hl7.org/CodeSystem/condition-category",
                "code": "encounter-diagnosis"
              }
            ]
          }
        ],
        "code": {
          "coding": [
            {
              "system": "http://snomed.info/sct",
              "code": "123456",
              "display": "Example diagnosis"
            }
          ]
        },
        "subject": {
          "reference": "Patient/1"
        },
        "onsetDateTime": "2023-06-01T00:00:00Z"
      },
      "request": {
        "method": "PUT",
        "url": "Condition/2"
      }
    },
    {
      "resource": {
        "resourceType": "Observation",
        "id": "b84c9b34-d374-4d76-ae61-544ecb84265f",
        "meta": {
          "profile": [
            "https://www.medizininformatik-initiative.de/fhir/core/modul-labor/StructureDefinition/ObservationLab|2025"
          ]
        },
        "status": "final",
        "category": [
          {
            "coding": [
              {
                "system": "http://terminology.hl7.org/CodeSystem/observation-category",
                "code": "laboratory"
              }
            ]
          }
        ],
        "code": {
          "coding": [
            {
              "system": "http://loinc.org",
              "code": "5678-9",
              "display": "Example lab test 2"
            }
          ]
        },
        "subject": {
          "reference": "Patient/2"
        },
        "effectiveDateTime": "2023-07-02T00:00:00Z",
        "valueQuantity": {
          "value": 5.1,
          "unit": "mmol/L",
          "system": "http://unitsofmeasure.org",
          "code": "mmol/L"
        }
      },
      "request": {
        "method": "PUT",
        "url": "Observation/b84c9b34-d374-4d76-ae61-544ecb84265f"
      }
    },
    {
      "resource": {
        "resourceType": "Patient",
        "id": "2",
        "meta": {
          "profile": [
            "https://www.medizininformatik-initiative.de/fhir/core/modul-person/StructureDefinition/Patient"
          ]
        },
        "identifier": [
          {
            "use": "usual",
            "system": "http://hospital.smarthealthit.org",
            "value": "654321"
          }
        ],
        "name": [
          {
            "use": "official",
            "family": "Smith",
            "given": [
              "Jane"
            ]
          }
        ],
        "gender": "female",
        "birthDate": "1990-02-02"
      },
      "request": {
        "method": "PUT",
        "url": "Patient/2"
      }
    },
    {
      "resource": {
        "resourceType": "Condition",
        "id": "3",
        "meta": {
          "profile": [
            "https://www.medizininformatik-initiative.de/fhir/core/modul-diagnose/StructureDefinition/Diagnose"
          ]
        },
        "clinicalStatus": {
          "coding": [
            {
              "system": "http://terminology.hl7.org/CodeSystem/condition-clinical",
              "code": "active"
            }
          ]
        },
        "verificationStatus": {
          "coding": [
            {
              "system": "http://terminology.hl7.org/CodeSystem/condition-ver-status",
              "code": "confirmed"
            }
          ]
        },
        "category": [
          {
            "coding": [
              {
                "system": "http://terminology.hl7.org/CodeSystem/condition-category",
                "code": "encounter-diagnosis"
              }
            ]
          }
        ],
        "code": {
          "coding": [
            {
              "system": "http://snomed.info/sct",
              "code": "654321",
              "display": "Example diagnosis 2"
            }
          ]
        },
        "subject": {
          "reference": "Patient/2"
        },
        "onsetDateTime": "2023-06-02T00:00:00Z"
      },
      "request": {
        "method": "PUT",
        "url": "Condition/3"
      }
    },
    {
      "resource": {
        "resourceType": "Observation",
        "id": "c74d8f35-e376-4d77-bc7a-ff5a5b84276e",
        "meta": {
          "profile": [
            "https://www.medizininformatik-initiative.de/fhir/core/modul-labor/StructureDefinition/ObservationLab"
          ]
        },
        "status": "final",
        "category": [
          {
            "coding": [
              {
                "system": "http://terminology.hl7.org/CodeSystem/observation-category",
                "code": "laboratory"
              }
            ]
          }
        ],
        "code": {
          "coding": [
            {
              "system": "http://loinc.org",
              "code": "9101-2",
              "display": "Example lab test 3"
            }
          ]
        },
        "subject": {
          "reference": "Patient/3"
        },
        "encounter": {
          "reference": "Encounter/5"
        },
        "effectiveDateTime": "2023-07-03T00:00:00Z",
        "valueQuantity": {
          "value": 8.4,
          "unit": "mmol/L",
          "system": "http://unitsofmeasure.org",
          "code": "mmol/L"
        }
      },
      "request": {
        "method": "PUT",
        "url": "Observation/c74d8f35-e376-4d77-bc7a-ff5a5b84276e"
      }
    },
    {
      "resource": {
        "resourceType": "Encounter",
        "id": "5",
        "status": "unknown"
      },
      "request": {
        "method": "PUT",
        "url": "Encounter/5"
      }
    },
    {
      "resource": {
        "resourceType": "Patient",
        "id": "3",
        "meta": {
          "profile": [
            "https://www.medizininformatik-initiative.de/fhir/core/modul-person/StructureDefinition/Patient"
          ]
        },
        "identifier": [
          {
            "use": "usual",
            "system": "http://hospital.smarthealthit.org",
            "value": "987654"
          }
        ],
        "name": [
          {
            "use": "official",
            "family": "Johnson",
            "given": [
              "Alex"
            ]
          }
        ],
        "gender": "other",
        "birthDate": "1975-03-03"
      },
      "request": {
        "method": "PUT",
        "url": "Patient/3"
      }
    },
    {
      "resource": {
        "resourceType": "Condition",
        "id": "4",
        "meta": {
          "profile": [
            "https://www.medizininformatik-initiative.de/fhir/core/modul-diagnose/StructureDefinition/Diagnose"
          ]
        },
        "clinicalStatus": {
          "coding": [
            {
              "system": "http://terminology.hl7.org/CodeSystem/condition-clinical",
              "code": "active"
            }
          ]
        },
        "verificationStatus": {
          "coding": [
            {
              "system": "http://terminology.hl7.org/CodeSystem/condition-ver-status",
              "code": "confirmed"
            }
          ]
        },
        "category": [
          {
            "coding": [
              {
                "system": "http://terminology.hl7.org/CodeSystem/condition-category",
                "code": "encounter-diagnosis"
              }
            ]
          }
        ],
        "code": {
          "coding": [
            {
              "system": "http://snomed.info/sct",
              "code": "45252009",
              "display": "Example diagnosis 3"
            }
          ]
        },
        "subject": {
          "reference": "Patient/3"
        },
        "onsetDateTime": "2023-06-03T00:00:00Z"
      },
      "request": {
        "method": "PUT",
        "url": "Condition/4"
      }
    },
    {
      "resource": {
        "resourceType": "Observation",
        "id": "d75e9g46-f487-4d88-cd8b-gg6c6c95387f",
        "meta": {
          "profile": [
            "https://www.medizininformatik-initiative.de/fhir/core/modul-labor/StructureDefinition/ObservationLab"
          ]
        },
        "status": "final",
        "category": [
          {
            "coding": [
              {
                "system": "http://terminology.hl7.org/CodeSystem/observation-category",
                "code": "laboratory"
              }
            ]
          }
        ],
        "code": {
          "coding": [
            {
              "system": "http://loinc.org",
              "code": "3456-7",
              "display": "Example lab test 4"
            }
          ]
        },
        "subject": {
          "reference": "Patient/4"
        },
        "encounter": {
          "reference": "Encounter/10"
        },
        "effectiveDateTime": "2023-07-04T00:00:00Z",
        "valueQuantity": {
          "value": 6.7,
          "unit": "mmol/L",
          "system": "http://unitsofmeasure.org",
          "code": "mmol/L"
        }
      },
      "request": {
        "method": "PUT",
        "url": "Observation/d75e9g46-f487-4d88-cd8b-gg6c6c95387f"
      }
    },
    {
      "resource": {
        "resourceType": "Encounter",
        "id": "10",
        "status": "unknown",
        "subject": {
          "reference": "Patient/4"
        }
      },
      "request": {
        "method": "PUT",
        "url": "Encounter/10"
      }
    },
    {
      "resource": {
        "resourceType": "Patient",
        "id": "4",
        "meta": {
          "profile": [
            "https://www.medizininformatik-initiative.de/fhir/core/modul-person/StructureDefinition/Patient"
          ]
        },
        "identifier": [
          {
            "use": "usual",
            "system": "http://hospital.smarthealthit.org",
            "value": "456789"
          }
        ],
        "name": [
          {
            "use": "official",
            "family": "Williams",
            "given": [
              "Chris"
            ]
          }
        ],
        "gender": "female",
        "birthDate": "1985-04-04"
      },
      "request": {
        "method": "PUT",
        "url": "Patient/4"
      }
    },
    {
      "fullUrl": "Consent/4-CO-1",
      "resource": {
        "patient": {
          "reference": "Patient/4"
        },
        "category": [
          {
            "coding": [
              {
                "system": "http://loinc.org",
                "code": "59284-0"
              }
            ]
          }
        ],
        "provision": {
          "provision": [
            {
              "type": "permit",
              "code": [
                {
                  "coding": [
                    {
                      "system": "urn:oid:2.16.840.1.113883.3.1937.777.24.5.3",
                      "code": "2.16.840.1.113883.3.1937.777.24.5.3.8"
                    }
                  ]
                }
              ],
              "period": {
                "start": "2019-01-01T00:00:00+01:00",
                "end": "2030-12-31T00:00:00+01:00"
              }
            },
            {
              "type": "permit",
              "code": [
                {
                  "coding": [
                    {
                      "system": "urn:oid:2.16.840.1.113883.3.1937.777.24.5.3",
                      "code": "2.16.840.1.113883.3.1937.777.24.5.3.46"
                    }
                  ]
                }
              ],
              "period": {
                "start": "2019-01-01T00:00:00+01:00",
                "end": "2030-12-31T00:00:00+01:00"
              }
            },
            {
              "type": "permit",
              "code": [
                {
                  "coding": [
                    {
                      "system": "urn:oid:2.16.840.1.113883.3.1937.777.24.5.3",
                      "code": "2.16.840.1.113883.3.1937.777.24.5.3.10"
                    }
                  ]
                }
              ],
              "period": {
                "start": "2019-01-01T00:00:00+01:00",
                "end": "2030-12-31T00:00:00+01:00"
              }
            },
            {
              "type": "permit",
              "code": [
                {
                  "coding": [
                    {
                      "system": "urn:oid:2.16.840.1.113883.3.1937.777.24.5.3",
                      "code": "2.16.840.1.113883.3.1937.777.24.5.3.37"
                    }
                  ]
                }
              ],
              "period": {
                "start": "2019-01-01T00:00:00+01:00",
                "end": "2030-12-31T00:00:00+01:00"
              }
            },
            {
              "type": "permit",
              "code": [
                {
                  "coding": [
                    {
                      "system": "urn:oid:2.16.840.1.113883.3.1937.777.24.5.3",
                      "code": "2.16.840.1.113883.3.1937.777.24.5.3.26"
                    }
                  ]
                }
              ],
              "period": {
                "start": "2019-01-01T00:00:00+01:00",
                "end": "2030-12-31T00:00:00+01:00"
              }
            },
            {
              "type": "permit",
              "code": [
                {
                  "coding": [
                    {
                      "system": "urn:oid:2.16.840.1.113883.3.1937.777.24.5.3",
                      "code": "2.16.840.1.113883.3.1937.777.24.5.3.27"
                    }
                  ]
                }
              ],
              "period": {
                "start": "2019-01-01T00:00:00+01:00",
                "end": "2030-12-31T00:00:00+01:00"
              }
            },
            {
              "type": "permit",
              "code": [
                {
                  "coding": [
                    {
                      "system": "urn:oid:2.16.840.1.113883.3.1937.777.24.5.3",
                      "code": "2.16.840.1.113883.3.1937.777.24.5.3.28"
                    }
                  ]
                }
              ],
              "period": {
                "start": "2019-01-01T00:00:00+01:00",
                "end": "2030-12-31T00:00:00+01:00"
              }
            },
            {
              "type": "permit",
              "code": [
                {
                  "coding": [
                    {
                      "system": "urn:oid:2.16.840.1.113883.3.1937.777.24.5.3",
                      "code": "2.16.840.1.113883.3.1937.777.24.5.3.29"
                    }
                  ]
                }
              ],
              "period": {
                "start": "2019-01-01T00:00:00+01:00",
                "end": "2030-12-31T00:00:00+01:00"
              }
            },
            {
              "type": "permit",
              "code": [
                {
                  "coding": [
                    {
                      "system": "urn:oid:2.16.840.1.113883.3.1937.777.24.5.3",
                      "code": "2.16.840.1.113883.3.1937.777.24.5.3.31"
                    }
                  ]
                }
              ],
              "period": {
                "start": "2019-01-01T00:00:00+01:00",
                "end": "2030-12-31T00:00:00+01:00"
              }
            },
            {
              "type": "permit",
              "code": [
                {
                  "coding": [
                    {
                      "system": "urn:oid:2.16.840.1.113883.3.1937.777.24.5.3",
                      "code": "2.16.840.1.113883.3.1937.777.24.5.3.30"
                    }
                  ]
                }
              ],
              "period": {
                "start": "2019-01-01T00:00:00+01:00",
                "end": "2030-12-31T00:00:00+01:00"
              }
            }
          ],
          "type": "deny",
          "period": {
            "start": "2019-01-01T00:00:00+01:00",
            "end": "2050-12-31T00:00:00+01:00"
          }
        },
        "meta": {
          "versionId": "6",
          "lastUpdated": "2024-09-27T09:01:54.858Z",
          "profile": [
            "http://fhir.de/ConsentManagement/StructureDefinition/Consent|2023",
            "https://www.medizininformatik-initiative.de/fhir/modul-consent/StructureDefinition/mii-pr-consent-einwilligung|2025"
          ]
        },
        "resourceType": "Consent",
        "scope": {
          "coding": [
            {
              "system": "http://terminology.hl7.org/CodeSystem/consentscope",
              "code": "research"
            }
          ]
        },
        "policy": [
          {
            "uri": "https://www.medizininformatik-initiative.de/sites/default/files/2020-04/MII_AG-Consent_Einheitlicher-Mustertext_v1.6d.pdf"
          }
        ],
        "dateTime": "2019-01-01T00:00:00+01:00",
        "status": "active",
        "id": "4-CO-1"
      },
      "request": {
        "method": "PUT",
        "url": "Consent/4-CO-1"
      }
    },
    {
      "resource": {
        "resourceType": "Condition",
        "id": "5",
        "meta": {
          "profile": [
            "https://www.medizininformatik-initiative.de/fhir/core/modul-diagnose/StructureDefinition/Diagnose"
          ]
        },
        "clinicalStatus": {
          "coding": [
            {
              "system": "http://terminology.hl7.org/CodeSystem/condition-clinical",
              "code": "active"
            }
          ]
        },
        "verificationStatus": {
          "coding": [
            {
              "system": "http://terminology.hl7.org/CodeSystem/condition-ver-status",
              "code": "confirmed"
            }
          ]
        },
        "category": [
          {
            "coding": [
              {
                "system": "http://terminology.hl7.org/CodeSystem/condition-category",
                "code": "encounter-diagnosis"
              }
            ]
          }
        ],
        "code": {
          "coding": [
            {
              "system": "http://snomed.info/sct",
              "code": "345678",
              "display": "Example diagnosis 4"
            }
          ]
        },
        "subject": {
          "reference": "Patient/4"
        },
        "onsetDateTime": "2023-06-04T00:00:00Z"
      },
      "request": {
        "method": "PUT",
        "url": "Condition/5"
      }
    },
    {
      "fullUrl": "Medication/Medication-1931880247",
      "resource": {
        "resourceType": "Medication",
        "id": "Medication-1931880247",
        "meta": {
          "profile": [
            "https://www.medizininformatik-initiative.de/fhir/core/modul-medikation/StructureDefinition/Medication"
          ]
        },
        "identifier": [
          {
            "value": "Medication-1931880247"
          }
        ],
        "code": {
          "coding": [
            {
              "system": "http://fhir.de/CodeSystem/bfarm/atc",
              "code": "N06AA25",
              "userSelected": true
            }
          ],
          "text": "ATC_AMITRYPTILIN"
        },
        "ingredient": [
          {
            "itemCodeableConcept": {
              "coding": [
                {
                  "system": "http://fhir.de/CodeSystem/ask",
                  "code": "<DUMMY VALUE FOR KDS Warning Suppression - no test value available>",
                  "display": "no code defined"
                }
              ]
            },
            "strength": {
              "numerator": {
                "value": 11,
                "unit": "milligram",
                "system": "http://unitsofmeasure.org",
                "code": "mg"
              },
              "denominator": {
                "value": 1,
                "system": "http://XXX",
                "code": "Filmtabletten"
              }
            }
          }
        ]
      },
      "request": {
        "method": "PUT",
        "url": "Medication/Medication-1931880247"
      }
    },
    {
      "resource": {
        "resourceType": "MedicationAdministration",
        "id": "MedicationAdministration1",
        "meta": {
          "profile": [
            "https://www.medizininformatik-initiative.de/fhir/core/modul-medikation/StructureDefinition/MedicationAdministration"
          ]
        },
        "identifier": [
          {
            "system": "https://www.charite.de/fhir/sid/MedicationAdministrations",
            "value": "MA_0000001"
          }
        ],
        "effectivePeriod": {
          "start": "2024-02-16T10:20:00.000+01:00",
          "end": "2024-02-16T10:50:00.000+01:00"
        },
        "status": "completed",
        "category": {
          "coding": [
            {
              "code": "inpatient",
              "system": "http://terminology.hl7.org/CodeSystem/medication-admin-category",
              "display": "Inpatient"
            }
          ]
        },
        "medicationReference": {
          "reference": "Medication/Medication-1931880247"
        },
        "subject": {
          "reference": "Patient/VHF00006"
        },
        "context": {
          "reference": "Encounter/VHF00006-E-1"
        }
      },
      "request": {
        "method": "PUT",
        "url": "MedicationAdministration/MedicationAdministration1"
      }
    }
  ]
}
